acc_x, acc_y, angular_z, stamp, 
-0.02630305290222168, 0.01227647066116333, -4.0563203896356964e-10, 1727987363311948979
0.002408742904663086, 0.012305855751037598, -3.8235735072526425e-10, 1727987363343182001
-0.017384648323059082, -0.018384575843811035, -4.5587462064978563e-10, 1727987363374498667
-0.017264127731323242, 0.022965073585510254, -5.010085328299296e-10, 1727987363401917634
0.0007328987121582031, 0.010114669799804688, -3.92169297192771e-10, 1727987363431892926
0.009974837303161621, -0.01871025562286377, -2.7326918633775316e-10, 1727987363461855388
0.003186047077178955, -0.00589221715927124, -5.3622652125405985e-05, 1727987363491867763
0.022553324699401855, 0.012068748474121094, 0.0021864982987745067, 1727987363521854159
2.018592596054077, -0.21533477306365967, 0.0012515307251114924, 1727987363551984994
0.4128151535987854, 0.05592912435531616, -0.025031826075239235, 1727987363583941380
1.0181468725204468, 0.21272891759872437, 0.04910345584450514, 1727987363614598589
0.9073513150215149, 0.37153106927871704, 0.11620927407924304, 1727987363641880921
1.0189599990844727, -0.03746974468231201, 0.15795244342992992, 1727987363671882225
0.5635461211204529, -0.2726559042930603, 0.18450296588724252, 1727987363701853006
0.2460957169532776, 0.3759419918060303, 0.1911649204689812, 1727987363732092809
1.0171828269958496, 0.013174593448638916, 0.26274599856757996, 1727987363761846858
0.39414656162261963, 0.15731799602508545, 0.24730198354316635, 1727987363792270211
0.4727083444595337, -0.18358463048934937, 0.25850966081751664, 1727987363823738767
1.119736909866333, 0.1450161337852478, 0.29746371321030046, 1727987363854671603
0.5891855955123901, 0.826223611831665, 0.36400556005789947, 1727987363881905239
0.7667679786682129, 0.23683196306228638, 0.3641609546860589, 1727987363911869784
0.8343363404273987, 0.16937291622161865, 0.36789177091756153, 1727987363941865011
0.5106779336929321, -0.18316322565078735, 0.3400037877313007, 1727987363971879546
0.2963795065879822, -0.004969000816345215, 0.3249678208078976, 1727987364001848866
-0.08145320415496826, 0.00644916296005249, 0.2676507229860302, 1727987364032050937
-1.1126708984375, -0.7344995737075806, 0.26828027643185215, 1727987364063704673
-0.0220678448677063, 0.2336025834083557, 0.2933628372504873, 1727987364094716237
-0.09534597396850586, 1.049048662185669, 0.3294037434397753, 1727987364121888825
0.02986621856689453, -0.15877413749694824, 0.314638680904312, 1727987364151899548
-0.7960596084594727, 0.4100413918495178, 0.328515008074217, 1727987364181912149
0.25595229864120483, 0.20747238397598267, 0.33345865972749394, 1727987364211191595
-0.21118509769439697, -0.0034099817276000977, 0.3256965459678427, 1727987364241910485
0.363800048828125, 0.25148022174835205, 0.3381167162968303, 1727987364271854463
-0.34125828742980957, 0.579969048500061, 0.3312424273999495, 1727987364303035074
-0.8491711616516113, 0.34003037214279175, 0.33826945633473676, 1727987364333740906
-0.0037833452224731445, 0.18481594324111938, 0.35914256164198843, 1727987364361932667
-0.14258110523223877, -0.37698912620544434, 0.3540053474943273, 1727987364390871966
-0.11593663692474365, 0.2317611575126648, 0.335030421808173, 1727987364421886303
0.305253803730011, 0.5121464729309082, 0.3538972144208737, 1727987364450816002
0.42302143573760986, 0.15485280752182007, 0.3421077379575527, 1727987364480830562
0.6217130422592163, 0.39448148012161255, 0.3377408285427109, 1727987364510878370
-0.5589146614074707, 0.42387181520462036, 0.28733233748608383, 1727987364543009457
0.8543127179145813, -0.24048078060150146, 0.3187455718597418, 1727987364573718705
0.018297970294952393, -0.36540794372558594, 0.40690422322644443, 1727987364601940782
0.4080255627632141, 0.42755913734436035, 0.3602128295558579, 1727987364630963077
-0.08627372980117798, -0.23723053932189941, 0.31295046087085454, 1727987364660867347
0.5620377063751221, -0.2650129199028015, 0.3383938459460453, 1727987364691823033
0.3171960115432739, 1.2003318071365356, 0.3751767180124748, 1727987364720895468
-1.0623748302459717, 0.20762526988983154, 0.3219335257091077, 1727987364752427993
-0.062340736389160156, -0.7658811211585999, 0.33526734696285954, 1727987364782625256
-0.11890643835067749, 0.14045727252960205, 0.3342790211132162, 1727987364814420431
0.14207589626312256, 0.1594998836517334, 0.3733439839664374, 1727987364841947305
0.12349987030029297, 0.2708498239517212, 0.3451755105712651, 1727987364871853547
0.40457600355148315, 0.9734044075012207, 0.352641825603924, 1727987364901823431
0.5163201093673706, 0.5594589710235596, 0.3856177227030685, 1727987364931812067
-0.3602742552757263, 0.006685972213745117, 0.37539716581625915, 1727987364960833729
0.4455951452255249, -0.12564128637313843, 0.3258411674620448, 1727987364991866810
0.06777036190032959, -0.2935903072357178, 0.33042678991034075, 1727987365022642499
0.4307006001472473, -0.46432816982269287, 0.3389971905530989, 1727987365053784662
0.2287845015525818, 0.14355218410491943, 0.37717781456717414, 1727987365081921883
0.35525524616241455, 0.5266284346580505, 0.3681390026321577, 1727987365111841252
-0.4734780192375183, 0.04407268762588501, 0.3840297310431075, 1727987365141822844
0.17795848846435547, 0.19230204820632935, 0.3538798959059015, 1727987365171800968
-0.08760160207748413, -0.005693554878234863, 0.347617728546258, 1727987365201845764
-0.3503240942955017, -0.1784932017326355, 0.38161686556329993, 1727987365231907162
0.11293900012969971, 0.3680395483970642, 0.35402065743277783, 1727987365264321668
0.35292208194732666, 0.7580897808074951, 0.34105316643645106, 1727987365294315924
0.47514212131500244, 0.5845438838005066, 0.35160608260207915, 1727987365321812697
0.14745742082595825, 0.3289252519607544, 0.3689399979814586, 1727987365351913066
-0.3303280472755432, 0.4808503985404968, 0.32883542123739734, 1727987365373967700
-0.24592328071594238, 0.842089056968689, 0.35297657820144773, 1727987365402411031
0.004211723804473877, -0.38284456729888916, 0.3310192527170037, 1727987365431863275
-0.3570186495780945, 0.32677072286605835, 0.33635999332481736, 1727987365461892711
0.029572665691375732, 0.4141380786895752, 0.3863814021093303, 1727987365491992124
0.28105562925338745, 0.2489321231842041, 0.40023234236998734, 1727987365522113835
-0.3112459182739258, 0.0648912787437439, 0.4195651981544077, 1727987365552316956
-0.01006460189819336, 0.3917349576950073, 0.37722705862779116, 1727987365584273336
0.35678255558013916, 0.04634743928909302, 0.3583770019801077, 1727987365614367131
-0.1561099886894226, 0.03544938564300537, 0.3858783579445302, 1727987365641062691
0.0778125524520874, 0.6376214027404785, 0.34678717447622165, 1727987365671861067
-0.060594260692596436, 0.36285823583602905, 0.3647293635158586, 1727987365701858531
0.26979923248291016, 0.2690202593803406, 0.38392080874150425, 1727987365731876788
0.11535370349884033, 0.3082088232040405, 0.40836415580456176, 1727987365761838797
-0.28791701793670654, -0.11476242542266846, 0.38159758047595926, 1727987365791855099
-0.009269654750823975, -0.42667049169540405, 0.3404250397553723, 1727987365824215360
-0.16379886865615845, -0.6191304922103882, 0.3768311238335892, 1727987365854331795
0.36484819650650024, -0.0243985652923584, 0.42510977937501787, 1727987365881883633
-0.05177503824234009, 0.9696340560913086, 0.3932773478257837, 1727987365911862379
0.4381011128425598, 0.40727168321609497, 0.3588592236743391, 1727987365941856678
-0.3404616117477417, 0.5099501013755798, 0.3765490232395621, 1727987365971825205
-0.09681832790374756, 0.3410570025444031, 0.3748984182067632, 1727987366001816502
-0.01670926809310913, 0.07864212989807129, 0.34226502664154784, 1727987366032314882
-0.25894904136657715, -0.2597882151603699, 0.343356347062734, 1727987366063944879
0.3088410496711731, 0.24195200204849243, 0.39488619772273253, 1727987366094415432
0.10130608081817627, 0.3834078311920166, 0.43027452401844823, 1727987366121883289
0.24780625104904175, 0.22077053785324097, 0.38096274171379785, 1727987366152397679
-0.4360423684120178, -0.16057467460632324, 0.3942959177945668, 1727987366181816508
0.5527442693710327, -0.15626835823059082, 0.374735930640313, 1727987366211809397
-0.10168313980102539, 0.16093820333480835, 0.38291055476288277, 1727987366241817352
-0.2257804274559021, -0.15765738487243652, 0.3823360230689248, 1727987366272104682
0.15256428718566895, 0.044477880001068115, 0.39060066810023136, 1727987366303796927
0.04490000009536743, 0.9378976225852966, 0.40576156211496367, 1727987366334437005
0.5984901785850525, 1.022681474685669, 0.43280311185776116, 1727987366361954807
-0.49846237897872925, -0.059443771839141846, 0.400845810621184, 1727987366391876308
-0.2991560101509094, -0.41393721103668213, 0.40987851408123754, 1727987366421805145
0.29506415128707886, 0.12426906824111938, 0.4020284390724627, 1727987366451818661
-0.678485095500946, -0.08421021699905396, 0.3734725324612653, 1727987366481875965
0.4919125437736511, -0.371441125869751, 0.3707950734667833, 1727987366511990560
0.15195655822753906, 0.6577370762825012, 0.3563017300091442, 1727987366544355875
0.4769274592399597, 0.5533870458602905, 0.3944410821055532, 1727987366574500537
-0.30490636825561523, 0.18427491188049316, 0.45179185346834794, 1727987366601838052
-0.6277334094047546, 0.2387000322341919, 0.4142824241677572, 1727987366631853015
0.1261957287788391, 0.10364329814910889, 0.42672218533191253, 1727987366661858079
-0.3374937176704407, -0.0018144845962524414, 0.4162995641853268, 1727987366691846836
0.31834059953689575, 0.5856691598892212, 0.3868302966647645, 1727987366721868362
0.38987094163894653, 0.27041882276535034, 0.40154833334631646, 1727987366751931329
0.1146203875541687, -0.1467440128326416, 0.38621744072973746, 1727987366783721460
-0.014188587665557861, 0.4864731431007385, 0.40436085452212983, 1727987366813794117
0.5875776410102844, 0.552069365978241, 0.43798994417866705, 1727987366841998914
-0.21238529682159424, 0.3594527244567871, 0.4147034249149982, 1727987366871856685
0.2599238157272339, 0.3030768632888794, 0.4248777017462158, 1727987366901845958
-0.4683372974395752, -0.2030676007270813, 0.4506480337150933, 1727987366931861637
-0.7318334579467773, -0.053932011127471924, 0.4660372163036583, 1727987366961845483
0.07407629489898682, -0.20662420988082886, 0.43977317435845137, 1727987366991199374
-0.3971879482269287, 0.2594519853591919, 0.3655411094001202, 1727987367023753840
0.32396286725997925, 1.020907998085022, 0.3993568839597999, 1727987367053862953
-0.2820349931716919, 0.4174530506134033, 0.44812214601224964, 1727987367081811379
0.19882351160049438, 0.3558899164199829, 0.4255521227189307, 1727987367111836999
-0.0002383589744567871, 0.2311488389968872, 0.42351201381488235, 1727987367141846442
-0.7223320007324219, -0.9194437265396118, 0.4244129959507736, 1727987367171832636
0.5168321132659912, -0.3223918080329895, 0.4384394826194185, 1727987367201841661
0.06955099105834961, 1.230010747909546, 0.43587893562204144, 1727987367231858760
-0.049076974391937256, 0.12111717462539673, 0.3771819987880791, 1727987367263958559
-0.6187630295753479, 0.1226319670677185, 0.411921289807189, 1727987367293806929
0.23680555820465088, 1.3522629737854004, 0.4510952025359705, 1727987367321801526
-0.48615533113479614, -0.30347341299057007, 0.40939817701590536, 1727987367351860353
-0.7890080213546753, -0.9176269173622131, 0.41344038240353814, 1727987367381845326
0.6487876176834106, 0.4667114019393921, 0.44137664456566084, 1727987367411816828
-0.026176512241363525, 0.14556127786636353, 0.4282120841549592, 1727987367441829206
0.20734858512878418, 0.4757917523384094, 0.42517701393260515, 1727987367471842854
-0.07154703140258789, 0.22425925731658936, 0.3915915118798383, 1727987367504454589
-0.29212963581085205, 0.4117506742477417, 0.45288422504848036, 1727987367534104863
-0.17367756366729736, -0.08821433782577515, 0.4610850654348752, 1727987367561848118
-0.7133373618125916, 0.06260514259338379, 0.40929795154646953, 1727987367591844869
0.14344608783721924, 0.07416361570358276, 0.4380166747560997, 1727987367621840075
-0.45109283924102783, 0.21389061212539673, 0.4477163528579396, 1727987367651816679
0.30557262897491455, 0.5856114625930786, 0.42821712392581845, 1727987367681822675
0.250690221786499, 0.19129431247711182, 0.4242107565505448, 1727987367711962449
-0.5994455814361572, -0.08049571514129639, 0.4011807099304609, 1727987367744079856
0.698110044002533, -0.06275957822799683, 0.4340450178628578, 1727987367773810329
-0.11826479434967041, 0.3059447407722473, 0.48038024565353754, 1727987367801826773
-0.029839158058166504, 0.15747874975204468, 0.43374355529317543, 1727987367831853089
-0.45358335971832275, 0.33128446340560913, 0.4140396078753161, 1727987367861832284
-0.5953449010848999, 0.8288574814796448, 0.415934023905116, 1727987367891797556
0.3427336812019348, 0.6897595524787903, 0.4203282995067217, 1727987367921813945
-0.42484503984451294, -0.3659626841545105, 0.4094194382248261, 1727987367952501853
0.16462111473083496, -0.9195259213447571, 0.43909391261967606, 1727987367983890718
0.12836062908172607, 0.2781268358230591, 0.4523843388075289, 1727987368013878832
0.595474123954773, 0.5507165193557739, 0.477174351610216, 1727987368041847515
-0.11856615543365479, -0.016243159770965576, 0.4643311878550061, 1727987368071857316
-0.3092307448387146, 1.33236825466156, 0.46112624708798544, 1727987368101892254
-0.12699729204177856, 0.6739175915718079, 0.43729664497010834, 1727987368132058867
-0.24909240007400513, -0.22617745399475098, 0.4310784505144512, 1727987368161869059
-0.049138545989990234, 0.3623243570327759, 0.4437774154249078, 1727987368192006462
-0.5830110311508179, 0.717583179473877, 0.39788564378412417, 1727987368223832836
0.5098400712013245, -0.0015596747398376465, 0.4270616650853677, 1727987368253885848
-0.29361099004745483, -0.13539189100265503, 0.49091176105078765, 1727987368281817108
0.4740288257598877, 0.06045091152191162, 0.45193039970119175, 1727987368311819560
-0.274788498878479, -0.18667948246002197, 0.47302756867956836, 1727987368341798126
0.03420448303222656, -0.002080678939819336, 0.47677135376115043, 1727987368371794539
0.18849265575408936, 0.6791101098060608, 0.469071994664972, 1727987368401828378
-0.12652921676635742, 0.7793200016021729, 0.4445851706956031, 1727987368431846993
0.46206510066986084, 0.2514731287956238, 0.4001244036126465, 1727987368464819483
-0.46050703525543213, -0.05768930912017822, 0.472013875921882, 1727987368493735601
0.1576055884361267, -0.45454472303390503, 0.488432492363271, 1727987368521813961
-0.5431165099143982, -0.21781092882156372, 0.4586546462559628, 1727987368551812405
0.004692256450653076, 0.599783718585968, 0.45382154797622115, 1727987368581799135
0.058448612689971924, 0.7711564898490906, 0.43745059521914836, 1727987368611807900
0.3258274793624878, 0.28101277351379395, 0.4413384458607533, 1727987368641839774
0.6092853546142578, 0.4233204126358032, 0.46551551804227986, 1727987368672117334
-0.1299801468849182, -0.12231844663619995, 0.4423731375890272, 1727987368704747987
-0.06531953811645508, -0.5796387791633606, 0.48680145569505334, 1727987368733925245
-0.04137295484542847, -0.049020588397979736, 0.5242725379843407, 1727987368761777798
0.060382187366485596, 0.7093470096588135, 0.46742411979012666, 1727987368791806956
0.23008882999420166, 0.519025444984436, 0.47868008889805796, 1727987368821825237
-0.14101004600524902, 0.33569931983947754, 0.4642954463672524, 1727987368851821612
0.6840763092041016, 0.7651950120925903, 0.4640781437745273, 1727987368881832717
-0.14913731813430786, -0.5465205907821655, 0.49261011052914566, 1727987368912377699
-0.5435764193534851, -0.5469762682914734, 0.4679128541275006, 1727987368943949073
0.09776425361633301, 0.029088079929351807, 0.4577290591514558, 1727987368973911155
0.011895596981048584, 0.22037672996520996, 0.4773774035738455, 1727987369001777503
0.0978134274482727, 0.7244442105293274, 0.45733424546213886, 1727987369031826122
-0.34222888946533203, 0.737851083278656, 0.44583390875381096, 1727987369061831544
-0.22247779369354248, 0.657180905342102, 0.45874974165030774, 1727987369091819825
1.1517106294631958, -0.358914852142334, 0.5251303374877789, 1727987369121862137
-0.2779204845428467, 0.019112348556518555, 0.5006254192090335, 1727987369152503224
-0.20881932973861694, -0.0017431974411010742, 0.451124144468222, 1727987369183171573
-0.24937427043914795, -0.09989160299301147, 0.43543928525248843, 1727987369213866665
-0.05188155174255371, 0.8534936904907227, 0.5223204430857422, 1727987369241809783
-0.1466248631477356, 0.6837795376777649, 0.4910754051684004, 1727987369271881351
-0.7066739797592163, -0.10683417320251465, 0.461098030664987, 1727987369301832821
0.6279423236846924, -0.09393614530563354, 0.436172569560112, 1727987369331827165
-0.368483304977417, -0.20315545797348022, 0.4767658029539912, 1727987369361822134
-0.10839903354644775, -0.18435490131378174, 0.4789235015677993, 1727987369391972671
0.0033050179481506348, 0.7648715376853943, 0.4532575466380633, 1727987369424399277
-0.21937096118927002, 0.4743238091468811, 0.5491716690542363, 1727987369451977351
-0.14778226613998413, 0.4672781229019165, 0.5027755809495135, 1727987369481852246
-0.549537718296051, -0.43966591358184814, 0.4985810953346167, 1727987369511848816
0.1329556703567505, -0.12152141332626343, 0.5098593684237593, 1727987369541836092
-0.1179003119468689, 0.2910590171813965, 0.5064419317376433, 1727987369571812341
-0.11052864789962769, 0.3861547112464905, 0.5094799007823153, 1727987369601821930
0.16007333993911743, 0.41452497243881226, 0.49002259134955933, 1727987369632380119
-0.08671921491622925, 0.87502521276474, 0.46822962277567864, 1727987369663199860
-0.22440463304519653, 0.06211429834365845, 0.49580076879144447, 1727987369693941388
-1.2300679683685303, -0.40212756395339966, 0.5665948161638831, 1727987369721826539
0.4681968092918396, 0.2267824411392212, 0.5201690018358016, 1727987369751873297
-0.41431528329849243, 0.10326206684112549, 0.5324635616607529, 1727987369781813671
0.3270329236984253, 0.14532005786895752, 0.5463662977206977, 1727987369811796161
-0.17431634664535522, 0.849023699760437, 0.5106372751052217, 1727987369841791461
-0.09886950254440308, 0.39067602157592773, 0.4903268103169009, 1727987369872421960
-0.3254935145378113, -0.2833976149559021, 0.48326084485734977, 1727987369903909392
0.5528133511543274, -0.13775700330734253, 0.5145209785857406, 1727987369933917058
0.42930537462234497, 0.20629370212554932, 0.5862552587128541, 1727987369961842864
-0.26827865839004517, 0.6870018839836121, 0.5278293656096507, 1727987369991810536
0.16382306814193726, 0.8382692933082581, 0.5072713005178768, 1727987370021815665
-0.4137726426124573, 0.21773052215576172, 0.5371613259587212, 1727987370051774492
-0.14854592084884644, 0.25922298431396484, 0.5508970655762255, 1727987370081802916
0.16696512699127197, -0.5657749176025391, 0.5039236256593688, 1727987370112135548
0.2757796049118042, -0.39453262090682983, 0.4768528535647077, 1727987370144025387
0.6084644198417664, 0.6407822966575623, 0.5455163072474132, 1727987370173872265
-0.27155715227127075, 0.7148523330688477, 0.5676182719854148, 1727987370201785831
-0.06290477514266968, 0.6979859471321106, 0.5114104947432117, 1727987370231774571
-0.20883136987686157, 0.3819640874862671, 0.5369844872015702, 1727987370261783175
-0.2980215549468994, -0.5951098203659058, 0.5580398721370124, 1727987370291776385
-0.08145332336425781, -0.17979949712753296, 0.5536820724367929, 1727987370321807059
0.10020053386688232, 0.8741774559020996, 0.5332568187995279, 1727987370352039864
0.0010551810264587402, 0.3019155263900757, 0.4810870244777699, 1727987370384359892
0.355043888092041, 0.07730740308761597, 0.5370256835884074, 1727987370413934792
-0.5137197971343994, 0.9283802509307861, 0.5724341431356287, 1727987370441780252
-0.12394458055496216, -0.009445726871490479, 0.533625979030947, 1727987370471797073
-0.5140544772148132, -0.6703348159790039, 0.5419286467662981, 1727987370501766171
0.712255597114563, 0.21033918857574463, 0.5591199199595089, 1727987370531796188
-0.30867964029312134, 0.47400420904159546, 0.5776819694067921, 1727987370561819631
-0.8049788475036621, 0.5386887788772583, 0.5729624901725444, 1727987370591968149
0.6407163143157959, 0.3515779376029968, 0.506981340629313, 1727987370624002460
-0.4890047311782837, 0.1961382031440735, 0.5542318337783206, 1727987370653929412
0.49513500928878784, 0.31909632682800293, 0.6149904219602285, 1727987370681777690
-0.14928042888641357, 0.6180245280265808, 0.575883369363904, 1727987370711833015
0.4653969407081604, 0.7805920839309692, 0.5577775939074122, 1727987370742112363
-0.42815619707107544, 0.19923371076583862, 0.5597610890981335, 1727987370771852871
-0.6908683776855469, -0.3474339246749878, 0.5773767672090199, 1727987370801823889
0.31132692098617554, -0.028905212879180908, 0.5781935924552003, 1727987370832642487
0.06972748041152954, 0.8728543519973755, 0.5398608053902816, 1727987370864306700
0.7917318940162659, 0.20276015996932983, 0.6062634297547992, 1727987370891835838
-0.3284088373184204, 0.522361695766449, 0.6026450638266455, 1727987370921788734
-0.5669974684715271, 0.8087666034698486, 0.5947429013965333, 1727987370951793930
0.04074054956436157, -0.3401409387588501, 0.5686080848637727, 1727987370981823644
-0.8609555959701538, -0.534952700138092, 0.5643214015597834, 1727987371011802360
-0.13168597221374512, 0.27434241771698, 0.570593146495998, 1727987371041824888
-0.0007689595222473145, 0.4324580430984497, 0.5617155913539809, 1727987371071977139
-0.1506630778312683, 0.6348849534988403, 0.5278915787869545, 1727987371104587883
0.9058746695518494, 0.07946842908859253, 0.6362008738627198, 1727987371131847508
-0.41575199365615845, 0.5676623582839966, 0.6334960988828696, 1727987371161796095
0.2618964910507202, -0.027485191822052002, 0.6342399794627375, 1727987371191816004
0.29963529109954834, 0.07664412260055542, 0.5981744532332305, 1727987371221802518
0.456093966960907, 0.02193349599838257, 0.6005261685330154, 1727987371251782047
0.25157684087753296, -0.15529084205627441, 0.6166430456036496, 1727987371281809334
-0.3305470943450928, 0.8533481359481812, 0.6117470650169757, 1727987371312369707
0.5596281886100769, 0.7735372185707092, 0.5691967068607487, 1727987371344418790
-0.4340311288833618, -0.1489865779876709, 0.6435816181269953, 1727987371371809338
0.5181701183319092, -0.5632591247558594, 0.5865503709158165, 1727987371401780021
0.06676864624023438, 0.17935413122177124, 0.6076953061423421, 1727987371431800220
-0.003336489200592041, 0.9604139924049377, 0.6258508454107203, 1727987371461871531
0.5988083481788635, 0.6290489435195923, 0.6393018892465462, 1727987371491814400
-0.7925704121589661, 0.363081157207489, 0.6310181310658538, 1727987371522122736
0.40803712606430054, 0.028725266456604004, 0.6189709378792106, 1727987371552279769
-0.08688580989837646, -0.32267463207244873, 0.561281774628994, 1727987371584091977
-0.21936410665512085, 0.24734115600585938, 0.6148197699607154, 1727987371611862084
-0.011198043823242188, 0.1678808331489563, 0.5585014296008232, 1727987371641978491
-0.4478336572647095, 0.5590153932571411, 0.5773974988211338, 1727987371671836364
0.5364940762519836, 0.17707926034927368, 0.61318040919728, 1727987371701764797
-0.17958420515060425, 0.7931087017059326, 0.6490998998062273, 1727987371731782070
-0.06659388542175293, 0.2984415292739868, 0.619815213737695, 1727987371761799137
0.33971530199050903, -0.1777239441871643, 0.5892187228912389, 1727987371792753302
-0.17832708358764648, -0.11071991920471191, 0.5735891416938079, 1727987371824044969
0.2861211895942688, 0.1971796154975891, 0.6474480631874161, 1727987371851814912
-0.7754331827163696, 0.6690102219581604, 0.5932699988267754, 1727987371881804017
-0.31666648387908936, 0.5355955958366394, 0.5985203949209523, 1727987371911807158
0.3204435110092163, 0.20309525728225708, 0.649256782308566, 1727987371941748554
-0.6570329070091248, -0.24551087617874146, 0.662382386380368, 1727987371971775465
0.534888505935669, -0.3436802625656128, 0.6495810500160752, 1727987372001755186
-0.22657054662704468, 0.7320024371147156, 0.6442697015084374, 1727987372031988784
0.59934401512146, 0.7143017053604126, 0.6171595025048372, 1727987372064209559
0.07683444023132324, -0.23084628582000732, 0.6548363183666813, 1727987372094059042
-0.06795734167098999, -0.5098615884780884, 0.7010003308952351, 1727987372121762028
0.7823507189750671, 0.017859995365142822, 0.6428908936544964, 1727987372151774163
-0.4356333613395691, 1.2570031881332397, 0.6338550715700321, 1727987372181755425
-0.050334274768829346, 0.34169018268585205, 0.6132534761506169, 1727987372211751988
0.32176393270492554, 0.17115795612335205, 0.627666636185264, 1727987372241773827
-0.4788929224014282, 0.18402141332626343, 0.6313310925510242, 1727987372272016434
-0.02611750364303589, -0.05767327547073364, 0.5919098902688223, 1727987372304807809
-0.7851209044456482, 0.652860701084137, 0.743107586271732, 1727987372331913318
0.5851927995681763, -0.07135045528411865, 0.6785190880659726, 1727987372361751966
-1.0438294410705566, 0.026664793491363525, 0.6779956695822589, 1727987372391774797
0.3296065926551819, 0.7381630539894104, 0.6685773888967489, 1727987372421741046
-0.023385703563690186, 0.45914435386657715, 0.6576889101267304, 1727987372451784549
-0.006853997707366943, -0.5896947383880615, 0.6440971641623701, 1727987372482034077
0.3524401783943176, 0.26026684045791626, 0.6643779263135827, 1727987372512104300
-0.17396730184555054, 0.6873507499694824, 0.6203611174048016, 1727987372544349423
0.08016681671142578, 0.3350791335105896, 0.7175721528456221, 1727987372571842595
-0.10901206731796265, 0.08375722169876099, 0.6685671648853099, 1727987372601738579
-0.8510628342628479, 0.14169424772262573, 0.6648041871880717, 1727987372631774700
0.3499073386192322, 0.24215275049209595, 0.6561219815358941, 1727987372661754992
-0.8716304898262024, -0.15364450216293335, 0.6400550692128099, 1727987372691794810
0.030148029327392578, 0.022150278091430664, 0.6403087901693891, 1727987372721826681
-0.010609686374664307, 0.728239893913269, 0.6101029256947917, 1727987372752515849
0.08068358898162842, 0.1532840132713318, 0.6046608792061837, 1727987372784118169
0.7617095708847046, 0.1777074933052063, 0.7885845791881773, 1727987372811831427
-0.20888835191726685, 0.34615206718444824, 0.7287071064727141, 1727987372841771332
0.6169633865356445, 0.031252145767211914, 0.6764461047027385, 1727987372871798917
0.030638575553894043, 0.10273724794387817, 0.6518460519425, 1727987372901772798
0.175412118434906, 0.7148882150650024, 0.6324773951477759, 1727987372931810095
-0.18752139806747437, -0.20187091827392578, 0.6752350517069203, 1727987372961771631
-0.3811599612236023, 0.40562498569488525, 0.6648789337607796, 1727987372992447696
0.3825492858886719, 0.79090815782547, 0.6236244237926241, 1727987373024068503
-0.4545100927352905, -0.23941999673843384, 0.7163729439549542, 1727987373051839810
-0.3542921543121338, -0.589907705783844, 0.683935624162031, 1727987373081761628
-0.03772175312042236, 0.6831021308898926, 0.6917205868776556, 1727987373111812344
-0.34634876251220703, 0.4724305272102356, 0.7066607133999742, 1727987373141785734
0.1172911524772644, 0.13879674673080444, 0.6903182072045478, 1727987373171818256
-0.17109394073486328, 0.2574543356895447, 0.6703701415269175, 1727987373201783458
-0.11478382349014282, 0.7391022443771362, 0.6909806004430171, 1727987373232160894
0.4147505760192871, 0.09598022699356079, 0.6809108519957124, 1727987373264526870
-0.6830448508262634, 0.043614745140075684, 0.7918993023701496, 1727987373291854267
0.5554343461990356, 0.5273584127426147, 0.710482991593408, 1727987373321774533
-0.30916929244995117, 0.22924727201461792, 0.7147342994351202, 1727987373351858947
0.7557950019836426, 0.08909517526626587, 0.7369404390378523, 1727987373382015567
-0.15523189306259155, -0.16060996055603027, 0.7444516531791285, 1727987373411944734
-0.6907243728637695, 0.8358702063560486, 0.7280974756025029, 1727987373441756551
0.5602769255638123, 0.35542774200439453, 0.6891729095458611, 1727987373472143566
-0.7930876612663269, -0.28101152181625366, 0.6759895753296685, 1727987373504073246
0.2184964418411255, 0.8169665336608887, 0.7831580920569868, 1727987373531847530
-0.1142570972442627, 0.3521636724472046, 0.7229449182477389, 1727987373561770030
-0.317368745803833, -0.48770850896835327, 0.7299178885635206, 1727987373591820308
0.1291569471359253, 0.04185718297958374, 0.7472610074718351, 1727987373621776884
0.0953184962272644, 0.3255395293235779, 0.7584783744054359, 1727987373651797384
0.856617271900177, 0.4212607145309448, 0.7708187716443401, 1727987373681777926
0.24449825286865234, 0.3925056457519531, 0.7420264516549244, 1727987373712659439
-0.1327785849571228, 0.9338952898979187, 0.7192124244284831, 1727987373744337350
0.01970905065536499, -0.04396069049835205, 0.8015287632039017, 1727987373771810143
-0.2754347324371338, -0.205169677734375, 0.7312016093262595, 1727987373801808079
0.2535914182662964, 0.1000942587852478, 0.7511624824930508, 1727987373831790256
-0.3949413299560547, 0.6510674953460693, 0.7696664242844261, 1727987373861746154
0.03803890943527222, 0.24362194538116455, 0.7604428600561483, 1727987373891763061
-0.2655670642852783, 0.08167582750320435, 0.7433695835673313, 1727987373922046117
-0.6737533211708069, 0.5557658672332764, 0.7562390295561133, 1727987373952083146
0.6055142283439636, -0.014531493186950684, 0.7210487552343712, 1727987373983190097
-0.2167406678199768, -0.12782448530197144, 0.7915632400569536, 1727987374011833427
-0.21870625019073486, 0.7929627299308777, 0.7490464662454683, 1727987374041779541
-0.40499329566955566, 0.07250440120697021, 0.7621197848512443, 1727987374071807192
0.056511759757995605, 0.00489354133605957, 0.7835238471965756, 1727987374101772527
-0.34952598810195923, 1.1477832794189453, 0.7742406349813136, 1727987374131773135
0.8084725141525269, 0.16516059637069702, 0.7720417569060424, 1727987374162030538
-0.4615646004676819, -0.9046642780303955, 0.7746579518544064, 1727987374192148399
0.22368091344833374, 0.2891218662261963, 0.6937786914413528, 1727987374224908866
-0.3521752953529358, 0.42849987745285034, 0.8511236434693243, 1727987374251828558
0.03666609525680542, -0.25136798620224, 0.7722990938026763, 1727987374281799897
0.19984948635101318, 1.2123708724975586, 0.7923329685701659, 1727987374311798640
0.10967659950256348, 0.6478334069252014, 0.7685421345187173, 1727987374341752423
0.34091275930404663, -0.42583584785461426, 0.7807136156395527, 1727987374371801428
-0.2830677628517151, 0.5161318182945251, 0.8180648502643015, 1727987374401805090
-0.4740270972251892, -0.09646767377853394, 0.7745636471749768, 1727987374432456643
-0.7034568786621094, -0.10809952020645142, 0.7258751490722193, 1727987374464118748
0.7758148312568665, 0.9211973547935486, 0.8692718918828682, 1727987374491273384
0.032304584980010986, 0.20976489782333374, 0.8075803841083233, 1727987374522282806
-0.31217145919799805, -0.08991575241088867, 0.8229838356272733, 1727987374551754686
-0.05934429168701172, 1.0625269412994385, 0.8029919894992712, 1727987374581783704
0.29071664810180664, -0.019066989421844482, 0.8183894351615894, 1727987374611837109
-0.792972207069397, -0.5773472785949707, 0.8028846767473967, 1727987374641810604
-0.336331844329834, 0.762296199798584, 0.7663636330882786, 1727987374672824223
-0.6358824968338013, 0.628231942653656, 0.7926943283358162, 1727987374704395020
-0.02004796266555786, -0.031773269176483154, 0.9047743288144973, 1727987374731937048
-0.3741644620895386, -0.06534379720687866, 0.8373030484366838, 1727987374761731814
-0.011840581893920898, 0.4193577170372009, 0.8188453281359012, 1727987374791802280
0.10494762659072876, -0.018978893756866455, 0.794543907027767, 1727987374821813438
0.35077977180480957, 0.44720548391342163, 0.840353984019151, 1727987374851830101
-0.26226967573165894, 0.8237681984901428, 0.8627216242215026, 1727987374882050231
-0.12461793422698975, -0.12567323446273804, 0.8178400922952128, 1727987374912263109
0.07098233699798584, 0.23857253789901733, 0.7414802541495807, 1727987374944328898
0.0006006360054016113, -0.22996705770492554, 0.8712624136810765, 1727987374971856958
0.19896018505096436, 0.23149681091308594, 0.8320812055856626, 1727987375001752385
0.015297114849090576, 0.6007751822471619, 0.8553994803474821, 1727987375031794827
0.3965120315551758, 0.11383569240570068, 0.8548403727289499, 1727987375061776596
-0.09711682796478271, 1.0654526948928833, 0.8363627601811262, 1727987375091824126
-0.172308087348938, 0.1751856803894043, 0.8096378992975218, 1727987375121853663
-0.3831801414489746, -0.4511752724647522, 0.8248202589974988, 1727987375152659395
-0.23732930421829224, 0.32930493354797363, 0.8346637204867984, 1727987375184584675
0.1803445816040039, 0.11878716945648193, 0.9801514957110318, 1727987375211833052
-0.38209497928619385, 0.26584184169769287, 0.897095514418799, 1727987375241754720
0.566460907459259, 0.8116564750671387, 0.8904953839921838, 1727987375271811683
0.25990772247314453, 0.7249122262001038, 0.895858340057597, 1727987375301770402
-0.32488811016082764, 0.013855993747711182, 0.8949804463986324, 1727987375331778144
0.02947288751602173, 0.10089147090911865, 0.8814150186281686, 1727987375361751218
-0.43257731199264526, 0.23817330598831177, 0.8933087586971734, 1727987375392238644
-0.096047043800354, -0.17795604467391968, 0.8583388732792253, 1727987375424292955
-0.16099560260772705, 0.3579360842704773, 1.0022043309563962, 1727987375451838910
-0.24553221464157104, 0.9518722295761108, 0.9136789966422056, 1727987375481752425
-0.39728933572769165, 0.2051132321357727, 0.897111702191142, 1727987375511804929
0.44257020950317383, -0.08712083101272583, 0.906571262918071, 1727987375541740114
-0.14926886558532715, 0.3834041357040405, 0.925715653360131, 1727987375571770249
-0.307256281375885, -0.2503596544265747, 0.9077742417109054, 1727987375601779824
-0.3591320514678955, 0.11665797233581543, 0.870718806825076, 1727987375632737582
-0.018353581428527832, 0.9436522722244263, 0.9080283630541182, 1727987375663165654
-0.3209298849105835, 0.6967873573303223, 0.9710036667545542, 1727987375691831739
-0.09449732303619385, 0.1491193175315857, 0.9502642786336303, 1727987375721764576
-1.1498888731002808, -0.010050535202026367, 0.9337111576894623, 1727987375751793177
0.5585859417915344, 0.2142062783241272, 0.9107622523390969, 1727987375781719871
-0.5437183976173401, -0.37678396701812744, 0.9323736262726674, 1727987375811739592
-0.16773509979248047, 0.28790128231048584, 0.9322661578764488, 1727987375841751491
0.03292340040206909, 0.8375987410545349, 0.917406674151293, 1727987375872246701
0.11328238248825073, 0.4245360493659973, 0.8613979742538047, 1727987375904427959
0.1464354395866394, 0.4899510145187378, 1.0490014977787625, 1727987375932039164
-0.5591152310371399, 0.2671506404876709, 0.9659795097471379, 1727987375961825123
-0.4046633839607239, -0.36609572172164917, 0.9755628577956531, 1727987375991840948
-0.4337630271911621, 0.2525210976600647, 0.9852742979282776, 1727987376021942956
0.042562007904052734, 0.5515457987785339, 0.9524808644821638, 1727987376051939821
0.1620352864265442, 0.3001363277435303, 0.9768858750454094, 1727987376081780354
-0.3510580062866211, -0.4732634425163269, 0.9285391498542221, 1727987376112434694
0.43114107847213745, 0.35250574350357056, 0.8572891827287366, 1727987376145129135
0.05090749263763428, 0.529295027256012, 1.1041589858099157, 1727987376171809559
0.11169153451919556, 0.6353480815887451, 0.9881268013856946, 1727987376201771715
0.15495091676712036, 0.6613839864730835, 0.9901676145939762, 1727987376231755581
0.12009286880493164, 0.2515273690223694, 1.0692538512367662, 1727987376261720015
-0.3790163993835449, 0.27030640840530396, 1.0592834337061492, 1727987376291751058
0.20054376125335693, -0.2927652597427368, 1.004548946320171, 1727987376321788049
-0.2608267068862915, -0.2129514217376709, 0.9499662211216703, 1727987376352605350
0.2076626420021057, 0.7673618197441101, 0.9386864943691997, 1727987376384450125
-0.06534790992736816, 0.5505965352058411, 1.1144858968880507, 1727987376411789967
0.09404420852661133, 0.6440750956535339, 1.0169955232662249, 1727987376441713200
-0.09607380628585815, 0.32460325956344604, 1.0168641553244457, 1727987376471761429
0.39640873670578003, -0.29901838302612305, 1.0462516133735773, 1727987376501753265
-0.5461612343788147, -0.007771968841552734, 1.067026343155034, 1727987376531785779
0.40461474657058716, 0.7796587347984314, 1.0476383523557466, 1727987376561759681
-0.22261446714401245, 0.11812722682952881, 0.9943341752732872, 1727987376592816911
0.17225098609924316, 0.4223083257675171, 0.9969725879768063, 1727987376624268739
0.4544758200645447, 1.215773344039917, 1.1600128905922413, 1727987376651761275
-0.39489781856536865, 0.3043091893196106, 1.0332948825919648, 1727987376681714724
-0.5959241390228271, -0.674725353717804, 1.022634736134138, 1727987376711772599
0.4266219139099121, 0.07119190692901611, 1.0620244401364662, 1727987376741751060
-0.37751179933547974, 0.38168591260910034, 1.0747750398297171, 1727987376771784973
0.20109999179840088, 0.4335888624191284, 1.0621218763869709, 1727987376801807178
0.13864612579345703, 0.7127406597137451, 1.0639172731340962, 1727987376832363499
-0.24648863077163696, 0.9553412795066833, 1.023834636938995, 1727987376864300215
-0.024765431880950928, -0.12001615762710571, 1.1474801621845456, 1727987376891796761
-0.10843789577484131, 0.29281795024871826, 1.022689544646402, 1727987376921745223
-0.7988744378089905, 0.2711167335510254, 1.0607203045669176, 1727987376951796586
0.32708823680877686, -0.19857722520828247, 1.0829654572703553, 1727987376981750898
-0.2199726104736328, 0.6465675830841064, 1.0820413241467712, 1727987377011760570
-0.01626640558242798, 0.6741371154785156, 1.0983521899289284, 1727987377041749265
-0.49893128871917725, 0.19924193620681763, 1.0729938192682806, 1727987377072449521
0.374159038066864, 0.34428322315216064, 0.9999885519876183, 1727987377104955234
-0.3868786692619324, 0.3945942521095276, 1.243876174021666, 1727987377131809527
-0.22127896547317505, -0.05023324489593506, 1.136201956974447, 1727987377161768639
-0.4324128031730652, 0.4034798741340637, 1.139563552730879, 1727987377191814635
0.5753648281097412, 0.5198928117752075, 1.1804528713593128, 1727987377221759250
-0.28892260789871216, 0.7548583745956421, 1.1470926182528434, 1727987377251767103
0.7954829931259155, 0.3810216188430786, 1.1457436815104483, 1727987377282061282
-0.8514704704284668, 0.3404478430747986, 1.1608819111762994, 1727987377312441939
0.8489828705787659, 0.19115829467773438, 1.0780628184653271, 1727987377344457613
-0.3792610168457031, 0.727775514125824, 1.2396608319977322, 1727987377372306034
0.21612459421157837, 0.5246884226799011, 1.1875815567763783, 1727987377402124880
-1.0720142126083374, 0.6707799434661865, 1.1996385507967555, 1727987377431788827
0.7415353059768677, 0.21635836362838745, 1.1773468166645316, 1727987377461747317
-0.11866027116775513, 0.08075517416000366, 1.2087038181485998, 1727987377491713942
0.05772525072097778, 0.1469901204109192, 1.183398844247674, 1727987377521768999
-0.5061476230621338, 0.1230284571647644, 1.1163638905176703, 1727987377552995740
0.04993849992752075, 0.4182671308517456, 1.1134427750792693, 1727987377584179645
-0.1669122576713562, 0.8596086502075195, 1.2704137995102993, 1727987377612097337
-0.2302418351173401, 0.4189178943634033, 1.2372943559823901, 1727987377641769110
-0.7519657611846924, 0.04190230369567871, 1.222767623423891, 1727987377671786800
0.47876298427581787, 0.03236210346221924, 1.2621181962571957, 1727987377701753697
-0.2918860912322998, 0.31954503059387207, 1.2881628547519632, 1727987377731916908
0.06626343727111816, 0.19979757070541382, 1.2810979172070172, 1727987377761737584
-0.31181979179382324, 0.5669256448745728, 1.1886485922476022, 1727987377792635692
-0.3685757517814636, 0.7127583026885986, 1.1412765297478764, 1727987377824320876
0.5292986035346985, 0.8731160163879395, 1.3635425071501097, 1727987377851829092
-0.4180324077606201, -0.21877169609069824, 1.2825531472276028, 1727987377881759149
0.16183167695999146, 0.0366053581237793, 1.2710397911247804, 1727987377911762070
0.41488415002822876, 0.25695109367370605, 1.278768985392475, 1727987377941721527
-0.3599708676338196, 0.03974127769470215, 1.2971888568191745, 1727987377971729561
-0.43677377700805664, 0.858109712600708, 1.279070875109544, 1727987378001786357
0.27314621210098267, 0.5449045896530151, 1.2094546199199772, 1727987378032847034
-0.23823535442352295, 0.14295613765716553, 1.1813271591172843, 1727987378064849563
-0.018412411212921143, 0.46759092807769775, 1.425832038566649, 1727987378091833927
-0.060840070247650146, 0.3081809878349304, 1.2954092812607636, 1727987378121739710
-0.11455142498016357, -0.5015941858291626, 1.3283802342222577, 1727987378151734293
-0.8841432929039001, 0.6861532926559448, 1.3663940278908386, 1727987378181702157
1.148853063583374, 1.1843903064727783, 1.3749969999481257, 1727987378211731812
-0.7845848798751831, 0.1570497751235962, 1.3554980183399443, 1727987378241753620
0.29266947507858276, 0.1846909523010254, 1.3281655851381244, 1727987378272481268
-0.0010355710983276367, 0.3569948077201843, 1.2781706207542507, 1727987378304442621
0.08701783418655396, -0.32079142332077026, 1.4589185559532318, 1727987378331765604
-0.9671303629875183, 0.18943798542022705, 1.3561164351405386, 1727987378361695324
0.445584774017334, 0.5568139553070068, 1.3623865472589924, 1727987378391746510
-0.5636354088783264, 0.8943355679512024, 1.3713757228594463, 1727987378421728766
0.2523265480995178, 0.24810069799423218, 1.3956830554909836, 1727987378451758902
-0.5809714198112488, 0.6450512409210205, 1.4235496891956634, 1727987378481744995
0.2168477177619934, -0.14895939826965332, 1.357302352716641, 1727987378513132165
-0.9766669869422913, -0.08080369234085083, 1.3761192349109053, 1727987378544397466
0.0466921329498291, 0.424399733543396, 1.6022532870039996, 1727987378571757667
-0.2589520812034607, 0.6297775506973267, 1.43607671993442, 1727987378601742644
-0.08934962749481201, 0.21999776363372803, 1.4217094319675434, 1727987378631797548
-0.8986779451370239, -0.04294663667678833, 1.4146555464554533, 1727987378661801063
0.4520953297615051, 0.1572313904762268, 1.4762083451456138, 1727987378691780976
-0.4590715169906616, 0.715979814529419, 1.4985709563860143, 1727987378721768665
0.4915333390235901, 0.5210186839103699, 1.440511765712096, 1727987378752395644
-1.1880918741226196, 0.7833347916603088, 1.3775517405797164, 1727987378784312270
-0.1369413137435913, 0.44506436586380005, 1.655075415585198, 1727987378811765157
0.010720551013946533, -0.39194178581237793, 1.5601402203779462, 1727987378841711896
-0.310444712638855, -0.30919480323791504, 1.5438051864725084, 1727987378871753245
0.1632462739944458, 0.43746238946914673, 1.5053605578592248, 1727987378901732563
0.08710265159606934, 0.950851559638977, 1.4822472447541637, 1727987378931838539
0.3820018768310547, 0.44114547967910767, 1.508553979746794, 1727987378961906858
-0.6791561245918274, 0.7555394172668457, 1.4795669308604675, 1727987378992706608
0.516342043876648, 0.35678189992904663, 1.4152455381698887, 1727987379024835945
-0.6324502229690552, 0.026433050632476807, 1.719879835850066, 1727987379051780017
0.3306126594543457, -0.017719626426696777, 1.609526463902393, 1727987379081723459
-0.796593189239502, 0.360573410987854, 1.6165336150301233, 1727987379111756300
0.4124986529350281, 0.1968255639076233, 1.6176671568585603, 1727987379141731690
-0.5934860706329346, 1.0270841121673584, 1.5658775827503046, 1727987379171709175
0.21854305267333984, 0.455013632774353, 1.578179949258379, 1727987379201671271
-1.1392109394073486, -0.02542048692703247, 1.5557601590474306, 1727987379232443510
0.6536932587623596, -0.4494624733924866, 1.5131759996063132, 1727987379264678553
-0.9186410903930664, 0.4561581611633301, 1.7901634912347646, 1727987379291821051
0.2983545660972595, 0.40117979049682617, 1.6645446380144866, 1727987379321722023
-0.28216415643692017, 0.6932785511016846, 1.6590163658473598, 1727987379351765261
-0.18031001091003418, 0.5483191013336182, 1.671667618922457, 1727987379381699013
-0.2633453607559204, 0.7758781909942627, 1.6529757927367588, 1727987379411746671
0.34183162450790405, -0.43821972608566284, 1.6668854789518128, 1727987379441952906
-0.6634994149208069, 0.3438478708267212, 1.6377841413089043, 1727987379472887463
-0.1655392050743103, 0.24474996328353882, 1.6205572091595488, 1727987379504452900
0.01531451940536499, 0.24565893411636353, 1.859881061389103, 1727987379532063513
-0.20091146230697632, 0.5631014704704285, 1.7825421829998376, 1727987379561734584
-0.06447196006774902, 0.8556453585624695, 1.7618054130195913, 1727987379591757957
0.3837640881538391, 0.143815815448761, 1.7654119542101363, 1727987379621686978
-0.18137305974960327, 0.06281977891921997, 1.7568654327342992, 1727987379651698519
-0.7106608748435974, 0.4284098148345947, 1.7307437192757713, 1727987379681681923
0.7937036156654358, -0.26936089992523193, 1.6800688892453721, 1727987379712861801
-0.38617396354675293, 0.39665287733078003, 1.6657508477018557, 1727987379744472873
-0.3239870071411133, 1.0670956373214722, 1.8803194853055065, 1727987379771786231
-0.7958369255065918, 0.4365350008010864, 1.6955507303512922, 1727987379801701746
-0.6531610488891602, 0.2681676149368286, 1.7572285486839287, 1727987379831748107
-0.557483434677124, 0.5082818865776062, 1.8778028403450902, 1727987379861676256
-0.16264134645462036, -0.4192962050437927, 1.8792563756164944, 1727987379891718919
-0.2101140022277832, -0.11960619688034058, 1.8354240926869632, 1727987379921769705
0.5593439340591431, 0.6161850094795227, 1.8050558090332967, 1727987379952518192
-0.5016211867332458, 0.264937162399292, 1.7286612523946698, 1727987379985092973
-0.042147696018218994, -0.4891204833984375, 2.0824036470815033, 1727987380011830403
-0.6818646788597107, 0.02927476167678833, 1.8169592591728165, 1727987380041685799
-0.14067304134368896, 0.19219708442687988, 1.7758612958991835, 1727987380071706365
0.004466235637664795, 0.2177479863166809, 1.7676180972113742, 1727987380101672792
-0.7106963396072388, 0.9273131489753723, 1.8135993860157429, 1727987380131727734
-0.2164040207862854, 0.7760648727416992, 1.894018211334767, 1727987380162024794
-0.0938834547996521, 0.2785339951515198, 1.9258579289450701, 1727987380192477482
0.9299976229667664, 0.36089205741882324, 1.7965573538441064, 1727987380224808996
-1.0446739196777344, 0.26109492778778076, 2.1593935662225134, 1727987380251737603
-0.18785524368286133, -0.7290865182876587, 1.9393895674240649, 1727987380281669563
-0.45881378650665283, -0.21316498517990112, 1.904400987176196, 1727987380311709851
-0.037383973598480225, 0.2596467137336731, 1.9379386600090038, 1727987380341688678
-0.3275746703147888, -0.2445981502532959, 1.9206335004227082, 1727987380372054319
0.7027643918991089, 0.2763568162918091, 1.9597374632021953, 1727987380401707042
-0.42237091064453125, 0.7371117472648621, 1.8247040931715497, 1727987380433206568
0.3585934638977051, 0.068825364112854, 1.8348268469511675, 1727987380464564392
-0.25755882263183594, 0.46305155754089355, 2.056607347458793, 1727987380491725697
0.07593101263046265, 0.7473938465118408, 1.9421706236004346, 1727987380520671393
-0.8074304461479187, 0.236220121383667, 1.9356381922456924, 1727987380550701396
-0.5631502866744995, -0.39880847930908203, 1.9022975012259242, 1727987380581706515
-0.31338363885879517, 0.03351747989654541, 1.933523407972951, 1727987380611705746
-0.2158394455909729, 0.2131577730178833, 1.9261207588047955, 1727987380641730065
-0.4092944264411926, -0.0023604631423950195, 1.9003536532257652, 1727987380671638536
-0.9958127737045288, 0.4050174951553345, 1.711308681695741, 1727987380704419185
0.17326998710632324, -0.012666940689086914, 2.0846089307014135, 1727987380731724136
-1.0716416835784912, -0.2065076231956482, 1.9435316330066827, 1727987380760674110
0.3662640452384949, 0.20107126235961914, 1.8744006165861928, 1727987380790723696
-0.9446432590484619, -0.001094043254852295, 1.8304820171142235, 1727987380821705688
